           1
           0           0           0
           0           0           0           0           0           0
thermo_course/reaction_1                                                                            
 
 
 
           2           2           1           1           2
0 0 0 0. 0. 0. 0. 0.
 1473.0      773.00      60000.      20000.    
T(K)    
P(bar)  
  202     0     1     4     1     2     3     4     0     0     0     0
 3.00      1.00     -4.00     -1.00    
  1473.     0.4642E+05     1466.     0.4615E+05     1459.     0.4588E+05
  1452.     0.4562E+05     1445.     0.4535E+05     1438.     0.4509E+05
  1431.     0.4483E+05     1424.     0.4456E+05     1417.     0.4430E+05
  1410.     0.4404E+05     1403.     0.4378E+05     1396.     0.4352E+05
  1389.     0.4327E+05     1382.     0.4301E+05     1375.     0.4275E+05
  1368.     0.4250E+05     1361.     0.4224E+05     1354.     0.4199E+05
  1347.     0.4174E+05     1340.     0.4149E+05     1333.     0.4124E+05
  1326.     0.4099E+05     1319.     0.4074E+05     1312.     0.4050E+05
  1305.     0.4025E+05     1298.     0.4001E+05     1291.     0.3977E+05
  1284.     0.3952E+05     1277.     0.3928E+05     1270.     0.3904E+05
  1263.     0.3880E+05     1256.     0.3857E+05     1249.     0.3833E+05
  1242.     0.3809E+05     1235.     0.3786E+05     1228.     0.3763E+05
  1221.     0.3739E+05     1214.     0.3716E+05     1207.     0.3693E+05
  1200.     0.3670E+05     1193.     0.3648E+05     1186.     0.3625E+05
  1179.     0.3602E+05     1172.     0.3580E+05     1165.     0.3558E+05
  1158.     0.3536E+05     1151.     0.3513E+05     1144.     0.3492E+05
  1137.     0.3470E+05     1130.     0.3448E+05     1123.     0.3426E+05
  1116.     0.3405E+05     1109.     0.3384E+05     1102.     0.3363E+05
  1095.     0.3341E+05     1088.     0.3320E+05     1081.     0.3300E+05
  1074.     0.3279E+05     1067.     0.3258E+05     1060.     0.3238E+05
  1053.     0.3218E+05     1046.     0.3198E+05     1039.     0.3178E+05
  1032.     0.3158E+05     1025.     0.3138E+05     1018.     0.3118E+05
  1011.     0.3099E+05     1004.     0.3079E+05     997.0     0.3060E+05
  990.0     0.3041E+05     983.0     0.3022E+05     976.0     0.3003E+05
  969.0     0.2985E+05     962.0     0.2966E+05     955.0     0.2948E+05
  948.0     0.2930E+05     941.0     0.2912E+05     934.0     0.2894E+05
  927.0     0.2876E+05     920.0     0.2858E+05     913.0     0.2841E+05
  906.0     0.2824E+05     899.0     0.2806E+05     892.0     0.2789E+05
  885.0     0.2773E+05     878.0     0.2756E+05     871.0     0.2739E+05
  864.0     0.2723E+05     857.0     0.2707E+05     850.0     0.2691E+05
  843.0     0.2675E+05     836.0     0.2659E+05     829.0     0.2644E+05
  822.0     0.2628E+05     815.0     0.2613E+05     808.0     0.2598E+05
  801.0     0.2583E+05     794.0     0.2568E+05     787.0     0.2554E+05
  780.0     0.2539E+05     773.0     0.2525E+05
  202     0     1     3     1     2     3     0     0     0     0
 1.00     -1.00     -1.00    
  803.4     0.2000E+05     804.2     0.2040E+05     805.0     0.2080E+05
  805.8     0.2120E+05     806.6     0.2160E+05     807.5     0.2200E+05
  808.3     0.2240E+05     809.1     0.2280E+05     809.9     0.2320E+05
  810.7     0.2360E+05     811.5     0.2400E+05     812.3     0.2440E+05
  813.2     0.2480E+05     814.0     0.2520E+05     814.8     0.2560E+05
  815.6     0.2600E+05     816.4     0.2640E+05     817.2     0.2680E+05
  818.0     0.2720E+05     818.8     0.2760E+05     819.6     0.2800E+05
  820.4     0.2840E+05     821.2     0.2880E+05     821.9     0.2920E+05
  822.7     0.2960E+05     823.5     0.3000E+05     824.3     0.3040E+05
  825.1     0.3080E+05     825.9     0.3120E+05     826.7     0.3160E+05
  827.5     0.3200E+05     828.2     0.3240E+05     829.0     0.3280E+05
  829.8     0.3320E+05     830.6     0.3360E+05     831.4     0.3400E+05
  832.1     0.3440E+05     832.9     0.3480E+05     833.7     0.3520E+05
  834.4     0.3560E+05     835.2     0.3600E+05     836.0     0.3640E+05
  836.7     0.3680E+05     837.5     0.3720E+05     838.3     0.3760E+05
  839.0     0.3800E+05     839.8     0.3840E+05     840.6     0.3880E+05
  841.3     0.3920E+05     842.1     0.3960E+05     842.8     0.4000E+05
  843.6     0.4040E+05     844.3     0.4080E+05     845.1     0.4120E+05
  845.9     0.4160E+05     846.6     0.4200E+05     847.4     0.4240E+05
  848.1     0.4280E+05     848.8     0.4320E+05     849.6     0.4360E+05
  850.3     0.4400E+05     851.1     0.4440E+05     851.8     0.4480E+05
  852.6     0.4520E+05     853.3     0.4560E+05     854.0     0.4600E+05
  854.8     0.4640E+05     855.5     0.4680E+05     856.3     0.4720E+05
  857.0     0.4760E+05     857.7     0.4800E+05     858.4     0.4840E+05
  859.2     0.4880E+05     859.9     0.4920E+05     860.6     0.4960E+05
  861.4     0.5000E+05     862.1     0.5040E+05     862.8     0.5080E+05
  863.5     0.5120E+05     864.3     0.5160E+05     865.0     0.5200E+05
  865.7     0.5240E+05     866.4     0.5280E+05     867.1     0.5320E+05
  867.8     0.5360E+05     868.6     0.5400E+05     869.3     0.5440E+05
  870.0     0.5480E+05     870.7     0.5520E+05     871.4     0.5560E+05
  872.1     0.5600E+05     872.8     0.5640E+05     873.5     0.5680E+05
  874.2     0.5720E+05     875.0     0.5760E+05     875.7     0.5800E+05
  876.4     0.5840E+05     877.1     0.5880E+05     877.8     0.5920E+05
  878.5     0.5960E+05     879.2     0.6000E+05
 1 1 1 1 1 0 0 0 0
1.0
 0 0
